PE UV       SUBTECH     SPECTRUM    ASCII       PEDS        4.00        
   -1
PSF MgO 3.7 mg.Sample.asc
25/07/30
12:19:03.00
25/07/30
12:19:03.00
Analyst

200.000000
1
Lambda 1050+
1060L2403160
PerkinElmer UV WinLab 7.4.0.367 / 2.02.11 Lambda 900 UV/VIS/NIR, May 23 2018 11:23:04

0
0
3350/servo 860.8/2
0
0
UV/VIS
1
1
1
RBeamAtt,SBeamAtt,PerkinElmer 100mm Sphere with PbS detector
0
0
0
0
Program
Program
3350/servo 860.8/2
3350/0.2 860.8/0.2
3350/0.2 860.8/0.2
0
1.00
 
 
 
0
 
860.8
319.2
860.8
Front
100
 
S:100 R:100
 
0
0
0
 
0
 
 
 
0
 
 
0
0
0
0
0
 
 
 
 
0
0


0
0

0


#HDR
-1
-1
#GR
nm
%R
1.0
0.0
2500.000000
-5.000000
461
8
7.580248
0.103838
#DATA
2500.000000	1.069594
2495.000000	1.370355
2490.000000	0.637317
2485.000000	1.153482
2480.000000	0.579203
2475.000000	0.635470
2470.000000	1.454735
2465.000000	0.178786
2460.000000	0.133749
2455.000000	0.623455
2450.000000	0.954035
2445.000000	0.778900
2440.000000	1.010147
2435.000000	0.741981
2430.000000	0.103838
2425.000000	1.140459
2420.000000	1.008921
2415.000000	0.731665
2410.000000	1.740919
2405.000000	0.331852
2400.000000	1.260850
2395.000000	1.057896
2390.000000	1.284547
2385.000000	0.805776
2380.000000	1.309675
2375.000000	0.856764
2370.000000	1.208920
2365.000000	0.994538
2360.000000	1.163241
2355.000000	1.052562
2350.000000	1.129311
2345.000000	1.059173
2340.000000	1.244333
2335.000000	1.034068
2330.000000	1.236172
2325.000000	0.962677
2320.000000	1.539425
2315.000000	0.895849
2310.000000	1.354421
2305.000000	1.219745
2300.000000	1.095306
2295.000000	1.062289
2290.000000	1.311963
2285.000000	1.038176
2280.000000	1.071114
2275.000000	1.125510
2270.000000	1.430211
2265.000000	0.962861
2260.000000	1.186143
2255.000000	1.320630
2250.000000	1.292434
2245.000000	1.102454
2240.000000	1.444541
2235.000000	1.158376
2230.000000	1.376604
2225.000000	1.167469
2220.000000	1.127363
2215.000000	1.122183
2210.000000	1.045138
2205.000000	1.022627
2200.000000	0.914414
2195.000000	1.180244
2190.000000	1.219646
2185.000000	1.155857
2180.000000	1.221258
2175.000000	1.349950
2170.000000	1.341679
2165.000000	1.225285
2160.000000	1.431490
2155.000000	1.185697
2150.000000	1.235252
2145.000000	1.456176
2140.000000	1.370271
2135.000000	1.050037
2130.000000	1.222684
2125.000000	1.236298
2120.000000	1.331103
2115.000000	1.525544
2110.000000	1.577681
2105.000000	1.547615
2100.000000	1.617279
2095.000000	1.450622
2090.000000	1.525037
2085.000000	1.422177
2080.000000	1.509491
2075.000000	1.382151
2070.000000	1.478896
2065.000000	1.388214
2060.000000	1.415616
2055.000000	1.407911
2050.000000	1.471696
2045.000000	1.453680
2040.000000	1.428945
2035.000000	1.452100
2030.000000	1.505861
2025.000000	1.339331
2020.000000	1.387202
2015.000000	1.295629
2010.000000	1.338345
2005.000000	1.331296
2000.000000	1.315797
1995.000000	1.263146
1990.000000	1.330082
1985.000000	1.338448
1980.000000	1.287960
1975.000000	1.272123
1970.000000	1.290002
1965.000000	1.274059
1960.000000	1.247938
1955.000000	1.158509
1950.000000	1.223574
1945.000000	1.190958
1940.000000	1.167168
1935.000000	1.221816
1930.000000	1.273870
1925.000000	1.246818
1920.000000	1.308348
1915.000000	1.186770
1910.000000	1.344586
1905.000000	1.284195
1900.000000	1.356125
1895.000000	1.405010
1890.000000	1.366097
1885.000000	1.390890
1880.000000	1.434523
1875.000000	1.453412
1870.000000	1.566259
1865.000000	1.516400
1860.000000	1.512096
1855.000000	1.498868
1850.000000	1.531851
1845.000000	1.476681
1840.000000	1.571636
1835.000000	1.519383
1830.000000	1.559540
1825.000000	1.536554
1820.000000	1.568645
1815.000000	1.565202
1810.000000	1.562221
1805.000000	1.534203
1800.000000	1.524873
1795.000000	1.511608
1790.000000	1.515534
1785.000000	1.491284
1780.000000	1.478095
1775.000000	1.535806
1770.000000	1.558726
1765.000000	1.494284
1760.000000	1.533923
1755.000000	1.540437
1750.000000	1.529915
1745.000000	1.494166
1740.000000	1.523362
1735.000000	1.473542
1730.000000	1.505832
1725.000000	1.546757
1720.000000	1.548023
1715.000000	1.547358
1710.000000	1.530151
1705.000000	1.533203
1700.000000	1.539325
1695.000000	1.509874
1690.000000	1.527361
1685.000000	1.518486
1680.000000	1.532462
1675.000000	1.551846
1670.000000	1.546901
1665.000000	1.509385
1660.000000	1.475401
1655.000000	1.476214
1650.000000	1.497569
1645.000000	1.486384
1640.000000	1.513808
1635.000000	1.574291
1630.000000	1.570718
1625.000000	1.557631
1620.000000	1.569731
1615.000000	1.547976
1610.000000	1.520520
1605.000000	1.527489
1600.000000	1.551104
1595.000000	1.572525
1590.000000	1.571865
1585.000000	1.569566
1580.000000	1.559797
1575.000000	1.521868
1570.000000	1.520193
1565.000000	1.512913
1560.000000	1.534832
1555.000000	1.564999
1550.000000	1.572189
1545.000000	1.551051
1540.000000	1.537602
1535.000000	1.511326
1530.000000	1.507903
1525.000000	1.536777
1520.000000	1.570283
1515.000000	1.552012
1510.000000	1.523333
1505.000000	1.477356
1500.000000	1.478611
1495.000000	1.489043
1490.000000	1.509174
1485.000000	1.532294
1480.000000	1.518399
1475.000000	1.481465
1470.000000	1.452292
1465.000000	1.446034
1460.000000	1.463341
1455.000000	1.492243
1450.000000	1.501794
1445.000000	1.470863
1440.000000	1.444115
1435.000000	1.429718
1430.000000	1.442895
1425.000000	1.459950
1420.000000	1.467398
1415.000000	1.447350
1410.000000	1.425566
1405.000000	1.416841
1400.000000	1.451263
1395.000000	1.509456
1390.000000	1.530985
1385.000000	1.521899
1380.000000	1.495429
1375.000000	1.496251
1370.000000	1.551782
1365.000000	1.584711
1360.000000	1.572138
1355.000000	1.545139
1350.000000	1.546700
1345.000000	1.565504
1340.000000	1.581441
1335.000000	1.575839
1330.000000	1.539826
1325.000000	1.472441
1320.000000	1.442939
1315.000000	1.447280
1310.000000	1.433440
1305.000000	1.414063
1300.000000	1.405462
1295.000000	1.415497
1290.000000	1.436948
1285.000000	1.420158
1280.000000	1.390289
1275.000000	1.392945
1270.000000	1.402944
1265.000000	1.406747
1260.000000	1.395657
1255.000000	1.381629
1250.000000	1.384075
1245.000000	1.401929
1240.000000	1.401265
1235.000000	1.376729
1230.000000	1.377394
1225.000000	1.370365
1220.000000	1.367632
1215.000000	1.358714
1210.000000	1.338996
1205.000000	1.360154
1200.000000	1.359391
1195.000000	1.327132
1190.000000	1.332380
1185.000000	1.331174
1180.000000	1.326839
1175.000000	1.342553
1170.000000	1.322962
1165.000000	1.335174
1160.000000	1.331962
1155.000000	1.315824
1150.000000	1.311335
1145.000000	1.299174
1140.000000	1.302392
1135.000000	1.297077
1130.000000	1.294060
1125.000000	1.303230
1120.000000	1.307012
1115.000000	1.289599
1110.000000	1.283882
1105.000000	1.291360
1100.000000	1.288878
1095.000000	1.276863
1090.000000	1.261823
1085.000000	1.248452
1080.000000	1.233506
1075.000000	1.241093
1070.000000	1.253354
1065.000000	1.239619
1060.000000	1.231232
1055.000000	1.230690
1050.000000	1.221557
1045.000000	1.223757
1040.000000	1.223284
1035.000000	1.211293
1030.000000	1.201730
1025.000000	1.195774
1020.000000	1.195684
1015.000000	1.206891
1010.000000	1.213192
1005.000000	1.211180
1000.000000	1.205495
995.000000	1.182172
990.000000	1.152495
985.000000	1.135838
980.000000	1.133569
975.000000	1.123135
970.000000	1.094265
965.000000	1.109216
960.000000	1.070219
955.000000	1.039566
950.000000	1.042401
945.000000	1.041543
940.000000	1.004760
935.000000	0.981229
930.000000	0.983905
925.000000	0.975127
920.000000	0.914325
915.000000	0.911346
910.000000	0.866519
905.000000	0.869248
900.000000	0.856592
895.000000	0.901426
890.000000	0.867530
885.000000	0.895453
880.000000	0.859721
875.000000	0.882320
870.000000	0.832339
865.000000	0.853359
860.000000	1.298418
855.000000	1.016092
850.000000	0.521724
845.000000	0.496767
840.000000	0.597576
835.000000	0.619574
830.000000	0.664071
825.000000	0.644903
820.000000	0.636704
815.000000	0.677263
810.000000	0.696496
805.000000	0.664323
800.000000	0.633660
795.000000	0.635428
790.000000	0.596893
785.000000	0.588161
780.000000	0.593725
775.000000	0.572311
770.000000	0.568577
765.000000	0.538072
760.000000	0.531184
755.000000	0.530889
750.000000	0.502462
745.000000	0.494186
740.000000	0.481688
735.000000	0.461147
730.000000	0.458389
725.000000	0.451447
720.000000	0.442948
715.000000	0.430147
710.000000	0.437398
705.000000	0.435363
700.000000	0.430341
695.000000	0.434504
690.000000	0.448391
685.000000	0.438742
680.000000	0.433010
675.000000	0.439729
670.000000	0.441427
665.000000	0.447429
660.000000	0.446990
655.000000	0.442568
650.000000	0.446163
645.000000	0.447035
640.000000	0.456794
635.000000	0.461498
630.000000	0.462135
625.000000	0.465316
620.000000	0.465288
615.000000	0.470874
610.000000	0.471766
605.000000	0.474359
600.000000	0.478618
595.000000	0.481519
590.000000	0.483887
585.000000	0.487763
580.000000	0.490098
575.000000	0.492627
570.000000	0.490799
565.000000	0.497259
560.000000	0.506474
555.000000	0.504586
550.000000	0.504950
545.000000	0.508772
540.000000	0.510015
535.000000	0.518411
530.000000	0.525415
525.000000	0.535453
520.000000	0.548648
515.000000	0.562402
510.000000	0.582325
505.000000	0.592825
500.000000	0.592189
495.000000	0.584359
490.000000	0.568783
485.000000	0.548237
480.000000	0.541805
475.000000	0.572530
470.000000	0.596096
465.000000	0.615916
460.000000	0.627920
455.000000	0.633541
450.000000	0.630995
445.000000	0.624607
440.000000	0.627545
435.000000	0.640554
430.000000	0.650178
425.000000	0.662640
420.000000	0.674580
415.000000	0.690437
410.000000	0.701581
405.000000	0.717290
400.000000	0.735456
395.000000	0.752584
390.000000	0.775529
385.000000	0.788243
380.000000	0.795373
375.000000	0.742996
370.000000	0.789945
365.000000	0.857611
360.000000	0.902133
355.000000	0.945984
350.000000	1.001340
345.000000	1.045109
340.000000	1.090270
335.000000	1.210044
330.000000	1.343663
325.000000	1.587588
320.000000	1.860260
315.000000	2.205967
310.000000	2.759792
305.000000	3.407900
300.000000	3.098073
295.000000	2.736027
290.000000	2.591239
285.000000	2.593671
280.000000	2.653008
275.000000	2.725958
270.000000	2.782786
265.000000	2.892983
260.000000	3.314820
255.000000	3.484673
250.000000	3.669953
245.000000	3.723798
240.000000	3.806592
235.000000	3.967472
230.000000	4.147726
225.000000	4.364731
220.000000	4.668099
215.000000	5.128692
210.000000	5.666690
205.000000	6.361345
200.000000	7.580248
